ms,pos,steps,strain,g
0,0.000,200,-39123.00,-177.244
3,0.000,200,-39173.00,-177.475
81,0.000,200,-41566.00,-188.523
172,0.000,200,-51467.00,-234.236
264,0.000,200,-62458.00,-284.981
355,0.000,200,-66382.00,-303.098
447,0.000,200,-72130.00,-329.636
539,0.000,200,-81261.00,-371.794
631,0.000,200,-89070.00,-407.848
722,0.000,200,-100832.00,-462.152
814,0.000,200,-112806.00,-517.436
905,0.000,200,-123670.00,-567.595
996,0.000,200,-132157.00,-606.779
1089,0.000,200,-139294.00,-639.730
1180,0.000,200,-146145.00,-671.361
1272,0.000,200,-145700.00,-669.306
1363,0.000,200,-150211.00,-690.134
1455,0.000,200,-162951.00,-748.954
1546,0.000,200,-176060.00,-809.477
1638,0.000,200,-187566.00,-862.600
1730,0.000,200,-198864.00,-914.763
1821,0.000,200,-210075.00,-966.524
1913,0.000,200,-222216.00,-1022.578
2004,0.000,200,-233862.00,-1076.347
2096,0.000,200,-245081.00,-1128.145
2187,0.000,200,-256902.00,-1182.722
2279,0.000,200,-268012.00,-1234.017
2371,0.000,200,-279468.00,-1286.909
2463,0.000,200,-291203.00,-1341.089
2554,0.000,200,-303636.00,-1398.491
2646,0.000,200,-315384.00,-1452.732
2737,0.000,200,-326033.00,-1501.898
2828,0.000,200,-336752.00,-1551.387
2920,0.000,200,-346574.00,-1596.735
3012,0.000,200,-356338.00,-1641.815
3104,0.000,200,-366280.00,-1687.717
3195,0.000,200,-376354.00,-1734.228
3287,0.000,200,-385762.00,-1777.664
3378,0.000,200,-394157.00,-1816.424
3470,0.000,200,-402680.00,-1855.774
3561,0.000,200,-409781.00,-1888.559
3653,0.000,200,-416308.00,-1918.694
3745,0.000,200,-422577.00,-1947.638
3836,0.000,200,-428844.00,-1976.572
3928,0.000,200,-434393.00,-2002.192
4019,0.000,200,-438620.00,-2021.708
4111,0.000,200,-442859.00,-2041.279
4202,0.000,200,-445923.00,-2055.426
4295,0.000,200,-448710.00,-2068.293
4386,0.000,200,-450936.00,-2078.570
4478,0.000,200,-452620.00,-2086.345
4569,0.000,200,-452841.00,-2087.366
4660,0.000,200,-451900.00,-2083.021
4752,0.000,200,-451227.00,-2079.914
4844,0.000,200,-451057.00,-2079.129
4936,0.000,200,-451828.00,-2082.689
5027,0.000,200,-452418.00,-2085.413
5119,0.000,200,-448789.00,-2068.658
5210,0.000,200,-438043.00,-2019.044
5302,0.000,200,-422461.00,-1947.102
5393,0.000,200,-406231.00,-1872.169
5485,0.000,200,-390459.00,-1799.350
5577,0.000,200,-375333.00,-1729.514
5668,0.000,200,-360334.00,-1660.264
5760,0.000,200,-346087.00,-1594.486
5851,0.000,200,-331566.00,-1527.443
5943,0.000,200,-318275.00,-1466.079
6034,0.000,200,-305680.00,-1407.928
6127,0.000,200,-293286.00,-1350.706
6218,0.000,200,-280849.00,-1293.285
6310,0.000,200,-268107.00,-1234.455
6401,0.000,200,-255830.00,-1177.773
6492,0.000,200,-243041.00,-1118.726
6584,0.000,200,-231126.00,-1063.715
6675,0.000,200,-219876.00,-1011.774
6768,0.000,200,-208724.00,-960.286
6859,0.000,200,-197539.00,-908.645
6951,0.000,200,-186143.00,-856.030
7042,0.000,200,-175310.00,-806.015
7133,0.000,200,-163823.00,-752.980
7225,0.000,200,-152856.00,-702.345
7316,0.000,200,-142483.00,-654.454
7409,0.000,200,-132087.00,-606.456
7500,0.000,200,-121716.00,-558.573
7592,0.000,200,-110984.00,-509.024
7683,0.000,200,-100549.00,-460.846
7775,0.000,200,-89291.00,-408.868
7866,0.000,200,-78736.00,-360.136
7959,0.000,200,-68734.00,-313.957
8050,0.000,200,-58998.00,-269.006
8141,0.000,200,-49660.00,-225.893
8233,0.000,200,-41090.00,-186.326
8324,0.000,200,-34065.00,-153.892
8416,0.000,200,-26428.00,-118.632
8507,0.000,200,-18867.00,-83.723
8600,0.000,200,-11994.00,-51.990
8691,0.000,200,-7820.00,-32.719
8782,0.000,200,-9215.00,-39.160
8874,0.000,200,-10925.00,-47.055
8965,0.000,200,-7134.00,-29.552
9057,0.000,200,-3024.00,-10.576
9148,0.000,200,-922.00,-0.871
9241,0.000,200,-326.00,1.880
9332,0.000,200,-244.00,2.259
9424,0.000,200,-260.00,2.185
9515,0.000,200,-241.00,2.273
9607,0.000,200,-231.00,2.319
9698,0.000,200,-207.00,2.430
9789,0.000,200,-150.00,2.693
9882,0.000,200,-136.00,2.757
9973,0.000,200,-126.00,2.804
10065,0.000,200,-85.00,2.993
10156,0.000,200,-82.00,3.007
10248,0.000,200,-156.00,2.665
10339,0.000,200,-189.00,2.513
10431,0.000,200,-124.00,2.813
10523,0.000,200,-172.00,2.591
10615,0.000,200,-120.00,2.831
10706,0.000,200,-173.00,2.587
10797,0.000,200,-205.00,2.439
10889,0.000,200,-196.00,2.480
10980,0.000,200,-164.00,2.628
11073,0.000,200,-163.00,2.633
11164,0.000,200,-105.00,2.901
11256,0.000,200,-123.00,2.818
11347,0.000,200,-133.00,2.771
11439,0.000,200,-128.00,2.794
11530,0.000,200,-98.00,2.933
11622,0.000,200,-88.00,2.979
11714,0.000,200,-86.00,2.988
11805,0.000,200,-135.00,2.762
11897,0.000,200,-141.00,2.734
11988,0.000,200,-136.00,2.757
12080,0.000,200,-106.00,2.896
12171,0.000,200,-118.00,2.841
12263,0.000,200,-154.00,2.674